Folder: FP-Versuchsprotokolle/v44/content/data (part 2)

File: Rocking3.UXD
; C:\DIFFDAT1\Praktikum\Tom lukas\Rocking3.raw(Diffrac Plus V1.01 file) converted by XCH V1.0
_FILEVERSION=2
_SITE='Deutschland'
_USER='Administrator'
_GONIOMETER_CODE=4885
; D8 Theta/Theta; Special
_SAMPLE_CHANGER_CODE=0
_ATTACHMENTS_CODE=0
_GONIOMETER_RADIUS=350
_FIXED_DIVSLIT=0.600000
_FIXED_SAMPLESLIT=0.000000
_FIXED_DETSLIT=11.66
_MONOCHROMATOR=0
; None
_THIN_FILM='N'
_BETA_FILTER='Y'
_FIXED_ANTISLIT=8.340000
_ANALYZER_CODE=0
; None
_DATEMEASURED='26-Jun-2023 10:19:09'
_WL_UNIT='A'
_WL1=1.540600
_WL2=1.544390
_WL3=1.392220
_WLRATIO=0.500000
_ANODE='Cu'
; (Data for Range number 1)
_DRIVE='THETA'
_STEPTIME=0.999980
_STEPSIZE=0.005000
_STEPMODE='C'
_START=0.200000
_THETA=0.200000
_2THETA=0.500000
_KHI=0.000000
_PHI=90
_X=-2.005000
_Y=0.500000
_Z=0.086000
_DIVERGENCE=0.000000
_ANTISCATTER=0.000000
_DETECTOR=5
_DETECTORSLIT='unkn'
_AUX1=0.000000
_AUX2=0.000000
_AUX3=0.000000
_TIMESTARTED=2.000000
_TEMP_RATE=-1.000000
_TEMP_DELAY=-1.000000
_KV=40
_MA=35
_RANGE_WL=1.540600
_3DPLANE=0
_GONIOMETER=0.499200
_PSDCHANNEL0=0
_2THETACOUNTS
   0.2000       288
   0.2050       364
   0.2100       464
   0.2150       618
   0.2200       782
   0.2250       958
   0.2300      2035
   0.2350      4504
   0.2400      6650
   0.2450      8628
   0.2500      9302
   0.2550      8153
   0.2600      5044
   0.2650      2837
   0.2700      1699
   0.2750      1316
   0.2800       949
   0.2850       689
   0.2900       499
   0.2950       354
   0.3000       309
   0.3050       246
   0.3100       211
   0.3150       163
   0.3200       112
   0.3250       112
   0.3300        89
   0.3350        89
   0.3400        66
   0.3450        67
   0.3500        52
   0.3550        40
   0.3600        45
   0.3650        40
   0.3700        31
   0.3750        30
   0.3800        32
   0.3850        20
   0.3900        16
   0.3950        17
   0.4000        17
   0.4050        14
   0.4100        18
   0.4150        10
   0.4200         7
   0.4250         7
   0.4300         9
   0.4350         4
   0.4400         1
   0.4450         8
   0.4500         2
   0.4550         5
   0.4600         3
   0.4650         2
   0.4700         1
   0.4750         4
   0.4800         2
   0.4850         1
   0.4900         0
   0.4950         0
   0.5000         0

File: XScan.UXD
; C:\DIFFDAT1\Praktikum\Tom lukas\XScan.raw(Diffrac Plus V1.01 file) converted by XCH V1.0
_FILEVERSION=2
_SITE='Deutschland'
_USER='Administrator'
_GONIOMETER_CODE=4885
; D8 Theta/Theta; Special
_SAMPLE_CHANGER_CODE=0
_ATTACHMENTS_CODE=0
_GONIOMETER_RADIUS=350
_FIXED_DIVSLIT=0.600000
_FIXED_SAMPLESLIT=0.000000
_FIXED_DETSLIT=11.66
_MONOCHROMATOR=0
; None
_THIN_FILM='N'
_BETA_FILTER='Y'
_FIXED_ANTISLIT=8.340000
_ANALYZER_CODE=0
; None
_DATEMEASURED='26-Jun-2023 09:40:37'
_WL_UNIT='A'
_WL1=1.540600
_WL2=1.544390
_WL3=1.392220
_WLRATIO=0.500000
_ANODE='Cu'
; (Data for Range number 1)
_DRIVE='X'
_STEPTIME=1.000000
_STEPSIZE=1.000000
_STEPMODE='S'
_START=-20
_THETA=0.000000
_2THETA=0.000000
_KHI=0.000000
_PHI=90
_X=-20
_Y=0.000000
_Z=0.069000
_DIVERGENCE=0.000000
_ANTISCATTER=0.000000
_DETECTOR=5
_DETECTORSLIT='unkn'
_AUX1=0.000000
_AUX2=0.000000
_AUX3=0.000000
_TIMESTARTED=4.000000
_TEMP_RATE=-1.000000
_TEMP_DELAY=-1.000000
_KV=40
_MA=35
_RANGE_WL=1.540600
_3DPLANE=0
_GONIOMETER=0.000000
_PSDCHANNEL0=0
_2THETACOUNTS
 -20.0000    178185
 -19.0000    178595
 -18.0000    176589
 -17.0000    178011
 -16.0000    178082
 -15.0000    177292
 -14.0000    178540
 -13.0000    177197
 -12.0000    175728
 -11.0000    134823
 -10.0000     88000
  -9.0000     89889
  -8.0000     94230
  -7.0000     95572
  -6.0000     96586
  -5.0000     97351
  -4.0000     97211
  -3.0000     96593
  -2.0000     97683
  -1.0000     99021
   0.0000     98208
   1.0000    101621
   2.0000    102845
   3.0000    103972
   4.0000    103898
   5.0000    104110
   6.0000    105542
   7.0000    106209
   8.0000    107204
   9.0000    107117
  10.0000    103963
  11.0000    135103
  12.0000    178628
  13.0000    179348
  14.0000    179568
  15.0000    179567
  16.0000    179292
  17.0000    178768
  18.0000    178461
  19.0000    179589
  20.0000    178643

File: ZScan1.UXD
; C:\DIFFDAT1\Praktikum\Tom lukas\ZScan1.raw(Diffrac Plus V1.01 file) converted by XCH V1.0
_FILEVERSION=2
_SITE='Deutschland'
_USER='Administrator'
_GONIOMETER_CODE=4885
; D8 Theta/Theta; Special
_SAMPLE_CHANGER_CODE=0
_ATTACHMENTS_CODE=0
_GONIOMETER_RADIUS=350
_FIXED_DIVSLIT=0.600000
_FIXED_SAMPLESLIT=0.000000
_FIXED_DETSLIT=11.66
_MONOCHROMATOR=0
; None
_THIN_FILM='N'
_BETA_FILTER='Y'
_FIXED_ANTISLIT=8.340000
_ANALYZER_CODE=0
; None
_DATEMEASURED='26-Jun-2023 09:37:38'
_WL_UNIT='A'
_WL1=1.540600
_WL2=1.544390
_WL3=1.392220
_WLRATIO=0.500000
_ANODE='Cu'
; (Data for Range number 1)
_DRIVE='Z'
_STEPTIME=1.000000
_STEPSIZE=0.040000
_STEPMODE='C'
_START=-1.000000
_THETA=0.000000
_2THETA=0.000000
_KHI=0.000000
_PHI=90
_X=0.000000
_Y=0.000000
_Z=-1.000000
_DIVERGENCE=0.000000
_ANTISCATTER=0.000000
_DETECTOR=5
_DETECTORSLIT='unkn'
_AUX1=0.000000
_AUX2=0.000000
_AUX3=0.000000
_TIMESTARTED=9.000000
_TEMP_RATE=-1.000000
_TEMP_DELAY=-1.000000
_KV=40
_MA=35
_RANGE_WL=1.540600
_3DPLANE=0
_GONIOMETER=0.000000
_PSDCHANNEL0=0
_2THETACOUNTS
  -1.0000    180404
  -0.9600    178524
  -0.9200    177908
  -0.8800    179599
  -0.8400    176810
  -0.8000    179717
  -0.7600    179069
  -0.7200    180831
  -0.6800    180460
  -0.6400    178335
  -0.6000    178840
  -0.5600    178832
  -0.5200    179456
  -0.4800    178698
  -0.4400    177213
  -0.4000    180033
  -0.3600    178619
  -0.3200    178580
  -0.2800    178208
  -0.2400    177742
  -0.2000    178619
  -0.1600    177576
  -0.1200    180065
  -0.0800    180973
  -0.0400    187981
   0.0000    189513
   0.0400    173887
   0.0800     64322
   0.1200       698
   0.1600         3
   0.2000         1
   0.2400         0
   0.2800         0
   0.3200         0
   0.3600         0
   0.4000         0
   0.4400         0
   0.4800         4
   0.5200        44
   0.5600       237
   0.6000       861
   0.6400      2466
   0.6800      4172
   0.7200     17035
   0.7600     37936
   0.8000      8861
   0.8400      2297
   0.8800       253
   0.9200         5
   0.9600         0
   1.0000         0

File: ZScan2.UXD
#; C:\DIFFDAT1\Praktikum\Tom lukas\ZScan2.raw(Diffrac Plus V1.01 file) converted by XCH V1.0
#_FILEVERSION=2
#_SITE='Deutschland'
#_USER='Administrator'
#_GONIOMETER_CODE=4885
#; D8 Theta/Theta; Special
#_SAMPLE_CHANGER_CODE=0
#_ATTACHMENTS_CODE=0
#_GONIOMETER_RADIUS=350
#_FIXED_DIVSLIT=0.600000
#_FIXED_SAMPLESLIT=0.000000
#_FIXED_DETSLIT=11.66
#_MONOCHROMATOR=0
#; None
#_THIN_FILM='N'
#_BETA_FILTER='Y'
#_FIXED_ANTISLIT=8.340000
#_ANALYZER_CODE=0
#; None
#_DATEMEASURED='26-Jun-2023 09:51:53'
#_WL_UNIT='A'
#_WL1=1.540600
#_WL2=1.544390
#_WL3=1.392220
#_WLRATIO=0.500000
#_ANODE='Cu'
#; (Data for Range number 1)
#_DRIVE='Z'
#_STEPTIME=1.000000
#_STEPSIZE=0.010000
#_STEPMODE='C'
#_START=-0.500000
#_THETA=0.000800
#_2THETA=0.000000
#_KHI=0.000000
#_PHI=90
#_X=-2.005000
#_Y=0.500000
#_Z=-0.500000
#_DIVERGENCE=0.000000
#_ANTISCATTER=0.000000
#_DETECTOR=5
#_DETECTORSLIT='unkn'
#_AUX1=0.000000
#_AUX2=0.000000
#_AUX3=0.000000
#_TIMESTARTED=3.000000
#_TEMP_RATE=-1.000000
#_TEMP_DELAY=-1.000000
#_KV=40
#_MA=35
#_RANGE_WL=1.540600
#_3DPLANE=0
#_GONIOMETER=0.000000
#_PSDCHANNEL0=0
#_2THETACOUNTS
  -0.5000    164699
  -0.4900    166587
  -0.4800    166192
  -0.4700    164683
  -0.4600    167156
  -0.4500    168057
  -0.4400    168365
  -0.4300    165300
  -0.4200    166050
  -0.4100    167575
  -0.4000    165244
  -0.3900    164897
  -0.3800    165584
  -0.3700    165884
  -0.3600    167322
  -0.3500    166564
  -0.3400    165600
  -0.3300    167132
  -0.3200    166090
  -0.3100    168420
  -0.3000    165118
  -0.2900    166366
  -0.2800    166342
  -0.2700    164857
  -0.2600    167575
  -0.2500    165505
  -0.2400    167330
  -0.2300    166848
  -0.2200    166271
  -0.2100    165015
  -0.2000    166722
  -0.1900    168065
  -0.1800    165308
  -0.1700    166777
  -0.1600    165734
  -0.1500    166287
  -0.1400    166279
  -0.1300    166469
  -0.1200    166635
  -0.1100    166437
  -0.1000    166271
  -0.0900    167172
  -0.0800    170032
  -0.0700    167725
  -0.0600    174219
  -0.0500    173942
  -0.0400    174385
  -0.0300    176786
  -0.0200    176154
  -0.0100    175759
   0.0000    174606
   0.0100    172141
   0.0200    171090
   0.0300    172978
   0.0400    167369
   0.0500    151337
   0.0600    122291
   0.0700     91174
   0.0800     59912
   0.0900     27924
   0.1000      6469
   0.1100       540
   0.1200        86
   0.1300        14
   0.1400         8
   0.1500         4
   0.1600         1
   0.1700         0
   0.1800         0
   0.1900         0
   0.2000         0
   0.2100         0
   0.2200         0
   0.2300         0
   0.2400         0
   0.2500         1
   0.2600         0
   0.2700         0
   0.2800         0
   0.2900         0
   0.3000         0
   0.3100         0
   0.3200         0
   0.3300         0
   0.3400         0
   0.3500         0
   0.3600         0
   0.3700         0
   0.3800         0
   0.3900         0
   0.4000         0
   0.4100         0
   0.4200         0
   0.4300         0
   0.4400         0
   0.4500         0
   0.4600         0
   0.4700         5
   0.4800         3
   0.4900        14
   0.5000        21

File: ZScan2_neu.UXD
#; C:\DIFFDAT1\Praktikum\Tom lukas\ZScan2_neu.raw(Diffrac Plus V1.01 file) converted by XCH V1.0
#_FILEVERSION=2
#_SITE='Deutschland'
#_USER='Administrator'
#_GONIOMETER_CODE=4885
#; D8 Theta/Theta; Special
#_SAMPLE_CHANGER_CODE=0
#_ATTACHMENTS_CODE=0
#_GONIOMETER_RADIUS=350
#_FIXED_DIVSLIT=0.600000
#_FIXED_SAMPLESLIT=0.000000
#_FIXED_DETSLIT=11.66
#_MONOCHROMATOR=0
#; None
#_THIN_FILM='N'
#_BETA_FILTER='Y'
#_FIXED_ANTISLIT=8.340000
#_ANALYZER_CODE=0
#; None
#_DATEMEASURED='26-Jun-2023 10:07:55'
#_WL_UNIT='A'
#_WL1=1.540600
#_WL2=1.544390
#_WL3=1.392220
#_WLRATIO=0.500000
#_ANODE='Cu'
#; (Data for Range number 1)
#_DRIVE='Z'
#_STEPTIME=1.000000
#_STEPSIZE=0.010000
#_STEPMODE='C'
#_START=-0.500000
#_THETA=0.000800
#_2THETA=0.000000
#_KHI=0.000000
#_PHI=90
#_X=-2.005000
#_Y=0.500000
#_Z=-0.500000
#_DIVERGENCE=0.000000
#_ANTISCATTER=0.000000
#_DETECTOR=5
#_DETECTORSLIT='unkn'
#_AUX1=0.000000
#_AUX2=0.000000
#_AUX3=0.000000
#_TIMESTARTED=3.000000
#_TEMP_RATE=-1.000000
#_TEMP_DELAY=-1.000000
#_KV=40
#_MA=35
#_RANGE_WL=1.540600
#_3DPLANE=0
#_GONIOMETER=0.000000
#_PSDCHANNEL0=0
#_2THETACOUNTS
  -0.5000    162614
  -0.4900    158980
  -0.4800    163443
  -0.4700    162764
  -0.4600    159722
  -0.4500    161350
  -0.4400    161192
  -0.4300    161113
  -0.4200    160994
  -0.4100    160963
  -0.4000    158656
  -0.3900    159770
  -0.3800    158735
  -0.3700    160662
  -0.3600    162227
  -0.3500    161405
  -0.3400    159872
  -0.3300    159003
  -0.3200    159722
  -0.3100    161500
  -0.3000    161026
  -0.2900    161982
  -0.2800    161413
  -0.2700    163032
  -0.2600    160947
  -0.2500    162163
  -0.2400    161950
  -0.2300    158640
  -0.2200    159138
  -0.2100    158845
  -0.2000    159580
  -0.1900    159232
  -0.1800    159880
  -0.1700    159193
  -0.1600    159225
  -0.1500    159722
  -0.1400    161587
  -0.1300    160844
  -0.1200    160425
  -0.1100    158861
  -0.1000    159343
  -0.0900    163427
  -0.0800    160386
  -0.0700    162582
  -0.0600    159880
  -0.0500    160947
  -0.0400    161168
  -0.0300    164367
  -0.0200    165315
  -0.0100    167275
   0.0000    166145
   0.0100    168128
   0.0200    166611
   0.0300    165679
   0.0400    167843
   0.0500    164786
   0.0600    157044
   0.0700    133501
   0.0800    104569
   0.0900     74054
   0.1000     43397
   0.1100     15990
   0.1200      2538
   0.1300       242
   0.1400        49
   0.1500        19
   0.1600         4
   0.1700         2
   0.1800         0
   0.1900         1
   0.2000         1
   0.2100         0
   0.2200         0
   0.2300         0
   0.2400         0
   0.2500         0
   0.2600         0
   0.2700         0
   0.2800         0
   0.2900         0
   0.3000         0
   0.3100         0
   0.3200         0
   0.3300         0
   0.3400         0
   0.3500         0
   0.3600         0
   0.3700         0
   0.3800         0
   0.3900         0
   0.4000         0
   0.4100         0
   0.4200         0
   0.4300         0
   0.4400         0
   0.4500         0
   0.4600         0
   0.4700         0
   0.4800         1
   0.4900         4
   0.5000         3

File: ZScan3.UXD
; C:\DIFFDAT1\Praktikum\Tom lukas\ZScan3.raw(Diffrac Plus V1.01 file) converted by XCH V1.0
_FILEVERSION=2
_SITE='Deutschland'
_USER='Administrator'
_GONIOMETER_CODE=4885
; D8 Theta/Theta; Special
_SAMPLE_CHANGER_CODE=0
_ATTACHMENTS_CODE=0
_GONIOMETER_RADIUS=350
_FIXED_DIVSLIT=0.600000
_FIXED_SAMPLESLIT=0.000000
_FIXED_DETSLIT=11.66
_MONOCHROMATOR=0
; None
_THIN_FILM='N'
_BETA_FILTER='Y'
_FIXED_ANTISLIT=8.340000
_ANALYZER_CODE=0
; None
_DATEMEASURED='26-Jun-2023 10:13:56'
_WL_UNIT='A'
_WL1=1.540600
_WL2=1.544390
_WL3=1.392220
_WLRATIO=0.500000
_ANODE='Cu'
; (Data for Range number 1)
_DRIVE='Z'
_STEPTIME=1.000000
_STEPSIZE=0.010000
_STEPMODE='C'
_START=-0.500000
_THETA=0.000800
_2THETA=0.300000
_KHI=0.000000
_PHI=90
_X=-2.005000
_Y=0.500000
_Z=-0.500000
_DIVERGENCE=0.000000
_ANTISCATTER=0.000000
_DETECTOR=5
_DETECTORSLIT='unkn'
_AUX1=0.000000
_AUX2=0.000000
_AUX3=0.000000
_TIMESTARTED=3.000000
_TEMP_RATE=-1.000000
_TEMP_DELAY=-1.000000
_KV=40
_MA=35
_RANGE_WL=1.540600
_3DPLANE=0
_GONIOMETER=0.300000
_PSDCHANNEL0=0
_2THETACOUNTS
  -0.5000         3
  -0.4900         0
  -0.4800         0
  -0.4700         0
  -0.4600         0
  -0.4500         0
  -0.4400         1
  -0.4300         0
  -0.4200         2
  -0.4100         4
  -0.4000         4
  -0.3900         0
  -0.3800         2
  -0.3700         0
  -0.3600         1
  -0.3500         1
  -0.3400         1
  -0.3300         1
  -0.3200         0
  -0.3100         0
  -0.3000         0
  -0.2900         0
  -0.2800         1
  -0.2700         1
  -0.2600         2
  -0.2500         1
  -0.2400         1
  -0.2300         1
  -0.2200         2
  -0.2100         1
  -0.2000         1
  -0.1900         1
  -0.1800         0
  -0.1700         2
  -0.1600         4
  -0.1500         0
  -0.1400         1
  -0.1300         0
  -0.1200         1
  -0.1100         4
  -0.1000         1
  -0.0900         0
  -0.0800         3
  -0.0700         2
  -0.0600         0
  -0.0500         0
  -0.0400         2
  -0.0300         2
  -0.0200         2
  -0.0100         1
   0.0000         1
   0.0100         2
   0.0200         5
   0.0300         1
   0.0400         5
   0.0500         5
   0.0600         7
   0.0700        10
   0.0800         9
   0.0900         6
   0.1000         2
   0.1100         7
   0.1200         5
   0.1300         6
   0.1400         6
   0.1500         4
   0.1600         3
   0.1700         2
   0.1800         2
   0.1900         2
   0.2000         1
   0.2100         3
   0.2200         1
   0.2300         1
   0.2400         2
   0.2500         3
   0.2600         1
   0.2700         0
   0.2800         6
   0.2900         6
   0.3000         1
   0.3100         2
   0.3200         1
   0.3300         5
   0.3400         3
   0.3500         3
   0.3600         2
   0.3700         3
   0.3800         2
   0.3900         2
   0.4000         0
   0.4100         3
   0.4200         2
   0.4300         1
   0.4400         0
   0.4500         2
   0.4600         0
   0.4700         0
   0.4800         0
   0.4900         2
   0.5000         1