Folder: FP-Versuchsprotokolle/v44/content/data

File: DiffuserScan.UXD
; C:\DIFFDAT1\Praktikum\Tom lukas\DiffuserScan.raw(Diffrac Plus V1.01 file) converted by XCH V1.0
_FILEVERSION=2
_SITE='Deutschland'
_USER='Administrator'
_GONIOMETER_CODE=4885
; D8 Theta/Theta; Special
_SAMPLE_CHANGER_CODE=0
_ATTACHMENTS_CODE=0
_GONIOMETER_RADIUS=350
_FIXED_DIVSLIT=0.600000
_FIXED_SAMPLESLIT=0.000000
_FIXED_DETSLIT=11.66
_MONOCHROMATOR=0
; None
_THIN_FILM='N'
_BETA_FILTER='Y'
_FIXED_ANTISLIT=8.340000
_ANALYZER_CODE=0
; None
_DATEMEASURED='26-Jun-2023 11:21:01'
_WL_UNIT='A'
_WL1=1.540600
_WL2=1.544390
_WL3=1.392220
_WLRATIO=0.500000
_ANODE='Cu'
; (Data for Range number 1)
_DRIVE='THETA'
_STEPTIME=5.000660
_STEPSIZE=0.005000
_STEPMODE='C'
_START=0.000000
_THETA=0.000000
_2THETA=0.100000
_KHI=0.000000
_PHI=90
_X=-2.005000
_Y=0.500000
_Z=0.086000
_DIVERGENCE=0.000000
_ANTISCATTER=0.000000
_DETECTOR=5
_DETECTORSLIT='unkn'
_AUX1=0.000000
_AUX2=0.000000
_AUX3=0.000000
_TIMESTARTED=2.000000
_TEMP_RATE=-1.000000
_TEMP_DELAY=-1.000000
_KV=40
_MA=35
_RANGE_WL=1.540600
_3DPLANE=0
_GONIOMETER=0.097600
_PSDCHANNEL0=0
_2THETACOUNTS
   0.0000     80785
   0.0100     56567
   0.0200     37277
   0.0300     21788
   0.0400     15181
   0.0500      8932
   0.0600      8473
   0.0700      5728
   0.0800      6987
   0.0900      5929
   0.1000      5458
   0.1100      5585
   0.1200      3882
   0.1300      3117
   0.1400      2581
   0.1500      2191
   0.1600      1783
   0.1700      1646
   0.1800      1553
   0.1900      1354
   0.2000      1208
   0.2100       862
   0.2200       602
   0.2300       418
   0.2400       276
   0.2500       159
   0.2600       137
   0.2700       103
   0.2800        91
   0.2900        87
   0.3000        60
   0.3100        52
   0.3200        59
   0.3300        50
   0.3400        36
   0.3500        41
   0.3600        23
   0.3700        36
   0.3800        34
   0.3900        22
   0.4000        29
   0.4100        26
   0.4200        21
   0.4300        23
   0.4400        17
   0.4500        12
   0.4600        15
   0.4700        17
   0.4800        11
   0.4900        15
   0.5000         7
   0.5100        10
   0.5200        14
   0.5300         6
   0.5400        10
   0.5500         8
   0.5600         6
   0.5700         7
   0.5800         5
   0.5900         7
   0.6000         5
   0.6100        11
   0.6200         4
   0.6300         6
   0.6400         5
   0.6500         6
   0.6600         3
   0.6700         6
   0.6800         5
   0.6900         0
   0.7000         2
   0.7100         4
   0.7200         1
   0.7300         2
   0.7400         3
   0.7500         3
   0.7600         2
   0.7700         6
   0.7800         1
   0.7900         2
   0.8000         2
   0.8100         4
   0.8200         3
   0.8300         0
   0.8400         1
   0.8500         1
   0.8600         4
   0.8700         3
   0.8800         0
   0.8900         3
   0.9000         1
   0.9100         2
   0.9200         1
   0.9300         1
   0.9400         2
   0.9500         2
   0.9600         2
   0.9700         0
   0.9800         1
   0.9900         1
   1.0000         0
   1.0100         1
   1.0200         2
   1.0300         2
   1.0400         0
   1.0500         0
   1.0600         0
   1.0700         1
   1.0800         1
   1.0900         1
   1.1000         1
   1.1100         0
   1.1200         1
   1.1300         2
   1.1400         1
   1.1500         0
   1.1600         1
   1.1700         0
   1.1800         2
   1.1900         1
   1.2000         1
   1.2100         0
   1.2200         1
   1.2300         0
   1.2400         1
   1.2500         0
   1.2600         0
   1.2700         1
   1.2800         0
   1.2900         0
   1.3000         1
   1.3100         2
   1.3200         0
   1.3300         0
   1.3400         0
   1.3500         1
   1.3600         0
   1.3700         0
   1.3800         0
   1.3900         1
   1.4000         1
   1.4100         0
   1.4200         0
   1.4300         0
   1.4400         0
   1.4500         0
   1.4600         0
   1.4700         0
   1.4800         1
   1.4900         0
   1.5000         0
   1.5100         1
   1.5200         0
   1.5300         0
   1.5400         1
   1.5500         0
   1.5600         0
   1.5700         0
   1.5800         0
   1.5900         0
   1.6000         0
   1.6100         0
   1.6200         0
   1.6300         0
   1.6400         0
   1.6500         1
   1.6600         0
   1.6700         0
   1.6800         0
   1.6900         0
   1.7000         0
   1.7100         0
   1.7200         0
   1.7300         0
   1.7400         0
   1.7500         0
   1.7600         0
   1.7700         0
   1.7800         0
   1.7900         0
   1.8000         0
   1.8100         1
   1.8200         0
   1.8300         0
   1.8400         0
   1.8500         0
   1.8600         0
   1.8700         0
   1.8800         0
   1.8900         0
   1.9000         0
   1.9100         0
   1.9200         0
   1.9300         0
   1.9400         0
   1.9500         0
   1.9600         0
   1.9700         0
   1.9800         0
   1.9900         0
   2.0000         0
   2.0100         0
   2.0200         0
   2.0300         1
   2.0400         0
   2.0500         0
   2.0600         0
   2.0700         0
   2.0800         0
   2.0900         0
   2.1000         1
   2.1100         0
   2.1200         0
   2.1300         0
   2.1400         0
   2.1500         0
   2.1600         0
   2.1700         0
   2.1800         0
   2.1900         0
   2.2000         0
   2.2100         0
   2.2200         0
   2.2300         0
   2.2400         0
   2.2500         0
   2.2600         0
   2.2700         0
   2.2800         0
   2.2900         0
   2.3000         0
   2.3100         0
   2.3200         0
   2.3300         0
   2.3400         0
   2.3500         0
   2.3600         0
   2.3700         0
   2.3800         0
   2.3900         0
   2.4000         0
   2.4100         0
   2.4200         0
   2.4300         0
   2.4400         0
   2.4500         0
   2.4600         0
   2.4700         1
   2.4800         0
   2.4900         0
   2.5000         0

File: DScan.UXD
#; C:\DIFFDAT1\Praktikum\Tom lukas\DScan.raw(Diffrac Plus V1.01 file) converted by XCH V1.0
#_FILEVERSION=2
#_SITE='Deutschland'
#_USER='Administrator'
#_GONIOMETER_CODE=4885
#; D8 Theta/Theta; Special
#_SAMPLE_CHANGER_CODE=0
#_ATTACHMENTS_CODE=0
#_GONIOMETER_RADIUS=350
#_FIXED_DIVSLIT=0.600000
#_FIXED_SAMPLESLIT=0.000000
#_FIXED_DETSLIT=11.66
#_MONOCHROMATOR=0
#; None
#_THIN_FILM='N'
#_BETA_FILTER='Y'
#_FIXED_ANTISLIT=8.340000
#_ANALYZER_CODE=0
#; None
#_DATEMEASURED='26-Jun-2023 09:30:31'
#_WL_UNIT='A'
#_WL1=1.540600
#_WL2=1.544390
#_WL3=1.392220
#_WLRATIO=0.500000
#_ANODE='Cu'
#; (Data for Range number 1)
#_DRIVE='2THETA'
#_STEPTIME=1.000000
#_STEPSIZE=0.005000
#_STEPMODE='S'
#_START=-0.500000
#_THETA=0.000000
#_2THETA=-0.500000
#_KHI=0.000000
#_PHI=90
#_X=0.000000
#_Y=0.000000
#_Z=-20
#_DIVERGENCE=0.000000
#_ANTISCATTER=0.000000
#_DETECTOR=5
#_DETECTORSLIT='unkn'
#_AUX1=0.000000
#_AUX2=0.000000
#_AUX3=0.000000
#_TIMESTARTED=2.000000
#_TEMP_RATE=-1.000000
#_TEMP_DELAY=-1.000000
#_KV=40
#_MA=35
#_RANGE_WL=1.540600
#_3DPLANE=0
#_GONIOMETER=-0.500000
#_PSDCHANNEL0=0
#_2THETACOUNTS
  -0.5000         0
  -0.4950         0
  -0.4900         0
  -0.4850         0
  -0.4800         0
  -0.4750         0
  -0.4700         0
  -0.4650         1
  -0.4600         0
  -0.4550         0
  -0.4500         0
  -0.4450         0
  -0.4400         0
  -0.4350         0
  -0.4300         0
  -0.4250         0
  -0.4200         0
  -0.4150         1
  -0.4100         0
  -0.4050         0
  -0.4000         0
  -0.3950         0
  -0.3900         0
  -0.3850         0
  -0.3800         2
  -0.3750         0
  -0.3700         0
  -0.3650         0
  -0.3600         0
  -0.3550         0
  -0.3500         0
  -0.3450         0
  -0.3400         0
  -0.3350         0
  -0.3300         0
  -0.3250         0
  -0.3200         0
  -0.3150         1
  -0.3100         1
  -0.3050         2
  -0.3000         1
  -0.2950         1
  -0.2900         0
  -0.2850         0
  -0.2800         1
  -0.2750         1
  -0.2700         0
  -0.2650         0
  -0.2600         1
  -0.2550         0
  -0.2500         0
  -0.2450         2
  -0.2400         2
  -0.2350         4
  -0.2300         3
  -0.2250         1
  -0.2200         3
  -0.2150         2
  -0.2100         5
  -0.2050         1
  -0.2000         3
  -0.1950         3
  -0.1900        11
  -0.1850        23
  -0.1800        84
  -0.1750       115
  -0.1700       221
  -0.1650       370
  -0.1600       606
  -0.1550       844
  -0.1500      1070
  -0.1450      1418
  -0.1400      1850
  -0.1350      2323
  -0.1300      2855
  -0.1250      3670
  -0.1200      4413
  -0.1150      5516
  -0.1100      6821
  -0.1050      8969
  -0.1000     11133
  -0.0950     13173
  -0.0900     15687
  -0.0850     20329
  -0.0800     25236
  -0.0750     30565
  -0.0700     36979
  -0.0650     48788
  -0.0600     64246
  -0.0550     80801
  -0.0500     92783
  -0.0450    102545
  -0.0400    107703
  -0.0350    112638
  -0.0300    117134
  -0.0250    124164
  -0.0200    132543
  -0.0150    145853
  -0.0100    160164
  -0.0050    175544
   0.0000    183955
   0.0050    185026
   0.0100    177537
   0.0150    164989
   0.0200    154396
   0.0250    141323
   0.0300    124490
   0.0350    100246
   0.0400     79191
   0.0450     59557
   0.0500     44990
   0.0550     37032
   0.0600     34072
   0.0650     30941
   0.0700     27571
   0.0750     23652
   0.0800     22181
   0.0850     22538
   0.0900     22073
   0.0950     19552
   0.1000     15862
   0.1050     12914
   0.1100     11076
   0.1150     11344
   0.1200     11650
   0.1250     11383
   0.1300      9554
   0.1350      7775
   0.1400      6511
   0.1450      5744
   0.1500      5741
   0.1550      5386
   0.1600      4506
   0.1650      3689
   0.1700      3305
   0.1750      3367
   0.1800      3383
   0.1850      3099
   0.1900      2515
   0.1950      1956
   0.2000      1596
   0.2050      1375
   0.2100      1210
   0.2150      1082
   0.2200       802
   0.2250       464
   0.2300       274
   0.2350       155
   0.2400       116
   0.2450        63
   0.2500        25
   0.2550        11
   0.2600         8
   0.2650         2
   0.2700         5
   0.2750         3
   0.2800         1
   0.2850         2
   0.2900         2
   0.2950         0
   0.3000         1
   0.3050         0
   0.3100         0
   0.3150         3
   0.3200         0
   0.3250         1
   0.3300         0
   0.3350         0
   0.3400         0
   0.3450         0
   0.3500         1
   0.3550         0
   0.3600         0
   0.3650         0
   0.3700         0
   0.3750         0
   0.3800         1
   0.3850         0
   0.3900         0
   0.3950         0
   0.4000         0
   0.4050         0
   0.4100         0
   0.4150         0
   0.4200         0
   0.4250         0
   0.4300         0
   0.4350         0
   0.4400         0
   0.4450         0
   0.4500         0
   0.4550         0
   0.4600         0
   0.4650         0
   0.4700         0
   0.4750         0
   0.4800         0
   0.4850         0
   0.4900         0
   0.4950         0
   0.5000         0

File: ReflectScan.UXD
#; C:\DIFFDAT1\Praktikum\Tom lukas\ReflectScan.raw(Diffrac Plus V1.01 file) converted by XCH V1.0
#_FILEVERSION=2
#_SITE='Deutschland'
#_USER='Administrator'
#_GONIOMETER_CODE=4885
#; D8 Theta/Theta; Special
#_SAMPLE_CHANGER_CODE=0
#_ATTACHMENTS_CODE=0
#_GONIOMETER_RADIUS=350
#_FIXED_DIVSLIT=0.600000
#_FIXED_SAMPLESLIT=0.000000
#_FIXED_DETSLIT=11.66
#_MONOCHROMATOR=0
#; None
#_THIN_FILM='N'
#_BETA_FILTER='Y'
#_FIXED_ANTISLIT=8.340000
#_ANALYZER_CODE=0
#; None
#_DATEMEASURED='26-Jun-2023 10:29:13'
#_WL_UNIT='A'
#_WL1=1.540600
#_WL2=1.544390
#_WL3=1.392220
#_WLRATIO=0.500000
#_ANODE='Cu'
#; (Data for Range number 1)
#_DRIVE='THETA'
#_STEPTIME=5.000660
#_STEPSIZE=0.005000
#_STEPMODE='C'
#_START=0.000000
#_THETA=0.000000
#_2THETA=-0.001600
#_KHI=0.000000
#_PHI=90
#_X=-2.005000
#_Y=0.500000
#_Z=0.086000
#_DIVERGENCE=0.000000
#_ANTISCATTER=0.000000
#_DETECTOR=5
#_DETECTORSLIT='unkn'
#_AUX1=0.000000
#_AUX2=0.000000
#_AUX3=0.000000
#_TIMESTARTED=4.000000
#_TEMP_RATE=-1.000000
#_TEMP_DELAY=-1.000000
#_KV=40
#_MA=35
#_RANGE_WL=1.540600
#_3DPLANE=0
#_GONIOMETER=-0.004000
#_PSDCHANNEL0=0
#_2THETACOUNTS
   0.0000    401072
   0.0100    823366
   0.0200    547119
   0.0300    293457
   0.0400    266492
   0.0500    299683
   0.0600    304278
   0.0700    334095
   0.0800    358612
   0.0900    388018
   0.1000    422559
   0.1100    455417
   0.1200    490491
   0.1300    522191
   0.1400    550987
   0.1500    572635
   0.1600    556691
   0.1700    528273
   0.1800    564083
   0.1900    556457
   0.2000    603115
   0.2100    544711
   0.2200    480773
   0.2300    294300
   0.2400    100732
   0.2500     46018
   0.2600     57868
   0.2700     48674
   0.2800     21232
   0.2900      8992
   0.3000     15879
   0.3100     19681
   0.3200     12323
   0.3300      4537
   0.3400      4184
   0.3500      7859
   0.3600      7999
   0.3700      4556
   0.3800      1672
   0.3900      2410
   0.4000      4066
   0.4100      4050
   0.4200      2101
   0.4300       887
   0.4400      1298
   0.4500      2189
   0.4600      2231
   0.4700      1179
   0.4800       514
   0.4900       779
   0.5000      1358
   0.5100      1316
   0.5200       734
   0.5300       329
   0.5400       463
   0.5500       832
   0.5600       867
   0.5700       532
   0.5800       254
   0.5900       282
   0.6000       498
   0.6100       589
   0.6200       404
   0.6300       194
   0.6400       156
   0.6500       333
   0.6600       377
   0.6700       279
   0.6800       143
   0.6900       111
   0.7000       197
   0.7100       266
   0.7200       230
   0.7300       111
   0.7400        87
   0.7500       123
   0.7600       164
   0.7700       141
   0.7800       116
   0.7900        55
   0.8000        68
   0.8100       114
   0.8200       123
   0.8300        73
   0.8400        46
   0.8500        57
   0.8600        64
   0.8700        97
   0.8800        62
   0.8900        30
   0.9000        47
   0.9100        50
   0.9200        50
   0.9300        64
   0.9400        24
   0.9500        25
   0.9600        31
   0.9700        50
   0.9800        44
   0.9900        24
   1.0000        19
   1.0100        22
   1.0200        30
   1.0300        22
   1.0400        20
   1.0500         9
   1.0600        16
   1.0700        31
   1.0800        23
   1.0900        15
   1.1000         6
   1.1100        13
   1.1200        14
   1.1300        13
   1.1400        12
   1.1500        18
   1.1600         9
   1.1700        14
   1.1800         9
   1.1900        16
   1.2000         6
   1.2100         9
   1.2200        12
   1.2300         9
   1.2400        14
   1.2500        10
   1.2600         5
   1.2700         3
   1.2800         5
   1.2900         9
   1.3000         7
   1.3100         2
   1.3200         3
   1.3300         6
   1.3400         4
   1.3500         6
   1.3600         4
   1.3700         1
   1.3800         2
   1.3900         2
   1.4000         2
   1.4100         2
   1.4200         2
   1.4300         0
   1.4400         2
   1.4500         1
   1.4600         1
   1.4700         0
   1.4800         1
   1.4900         4
   1.5000         0
   1.5100         0
   1.5200         1
   1.5300         0
   1.5400         4
   1.5500         4
   1.5600         2
   1.5700         0
   1.5800         1
   1.5900         0
   1.6000         2
   1.6100         0
   1.6200         0
   1.6300         2
   1.6400         2
   1.6500         1
   1.6600         2
   1.6700         1
   1.6800         1
   1.6900         1
   1.7000         1
   1.7100         0
   1.7200         0
   1.7300         0
   1.7400         0
   1.7500         1
   1.7600         0
   1.7700         0
   1.7800         1
   1.7900         0
   1.8000         0
   1.8100         0
   1.8200         1
   1.8300         0
   1.8400         1
   1.8500         0
   1.8600         0
   1.8700         1
   1.8800         0
   1.8900         0
   1.9000         1
   1.9100         0
   1.9200         2
   1.9300         0
   1.9400         0
   1.9500         0
   1.9600         2
   1.9700         0
   1.9800         0
   1.9900         0
   2.0000         1
   2.0100         0
   2.0200         0
   2.0300         0
   2.0400         0
   2.0500         1
   2.0600         0
   2.0700         0
   2.0800         0
   2.0900         0
   2.1000         0
   2.1100         0
   2.1200         0
   2.1300         0
   2.1400         0
   2.1500         0
   2.1600         0
   2.1700         0
   2.1800         0
   2.1900         0
   2.2000         0
   2.2100         1
   2.2200         0
   2.2300         0
   2.2400         0
   2.2500         0
   2.2600         0
   2.2700         0
   2.2800         0
   2.2900         0
   2.3000         0
   2.3100         0
   2.3200         1
   2.3300         0
   2.3400         0
   2.3500         1
   2.3600         0
   2.3700         0
   2.3800         0
   2.3900         0
   2.4000         0
   2.4100         0
   2.4200         0
   2.4300         0
   2.4400         0
   2.4500         0
   2.4600         1
   2.4700         0
   2.4800         0
   2.4900         0
   2.5000         0

File: Rocking1.UXD
; C:\DIFFDAT1\Praktikum\Tom lukas\Rocking1.raw(Diffrac Plus V1.01 file) converted by XCH V1.0
_FILEVERSION=2
_SITE='Deutschland'
_USER='Administrator'
_GONIOMETER_CODE=4885
; D8 Theta/Theta; Special
_SAMPLE_CHANGER_CODE=0
_ATTACHMENTS_CODE=0
_GONIOMETER_RADIUS=350
_FIXED_DIVSLIT=0.600000
_FIXED_SAMPLESLIT=0.000000
_FIXED_DETSLIT=11.66
_MONOCHROMATOR=0
; None
_THIN_FILM='N'
_BETA_FILTER='Y'
_FIXED_ANTISLIT=8.340000
_ANALYZER_CODE=0
; None
_DATEMEASURED='26-Jun-2023 09:48:21'
_WL_UNIT='A'
_WL1=1.540600
_WL2=1.544390
_WL3=1.392220
_WLRATIO=0.500000
_ANODE='Cu'
; (Data for Range number 1)
_DRIVE='THETA'
_STEPTIME=0.999980
_STEPSIZE=0.020000
_STEPMODE='C'
_START=-1.000000
_THETA=-1.000000
_2THETA=0.000000
_KHI=0.000000
_PHI=90
_X=-2.005000
_Y=0.500000
_Z=0.069000
_DIVERGENCE=0.000000
_ANTISCATTER=0.000000
_DETECTOR=5
_DETECTORSLIT='unkn'
_AUX1=0.000000
_AUX2=0.000000
_AUX3=0.000000
_TIMESTARTED=2.000000
_TEMP_RATE=-1.000000
_TEMP_DELAY=-1.000000
_KV=40
_MA=35
_RANGE_WL=1.540600
_3DPLANE=0
_GONIOMETER=-0.001700
_PSDCHANNEL0=0
_2THETACOUNTS
  -1.0000         0
  -0.9800         2
  -0.9600         0
  -0.9400         0
  -0.9200         0
  -0.9000         0
  -0.8800         0
  -0.8600         0
  -0.8400         0
  -0.8200         0
  -0.8000         0
  -0.7800         0
  -0.7600         1
  -0.7400         0
  -0.7200         0
  -0.7000         1
  -0.6800         1
  -0.6600         0
  -0.6400         0
  -0.6200         1
  -0.6000         1
  -0.5800         3
  -0.5600         1
  -0.5400         5
  -0.5200         3
  -0.5000         2
  -0.4800         2
  -0.4600         5
  -0.4400         5
  -0.4200        10
  -0.4000         6
  -0.3800        10
  -0.3600        10
  -0.3400        27
  -0.3200        20
  -0.3000        31
  -0.2800        33
  -0.2600        62
  -0.2400        86
  -0.2200       278
  -0.2000      1513
  -0.1800      4895
  -0.1600     10618
  -0.1400     18151
  -0.1200     27256
  -0.1000     37318
  -0.0800     47446
  -0.0600     57704
  -0.0400     67457
  -0.0200     78090
   0.0000     85828
   0.0200     77630
   0.0400     67057
   0.0600     55810
   0.0800     45228
   0.1000     34338
   0.1200     24573
   0.1400     15805
   0.1600      8829
   0.1800      4021
   0.2000      1202
   0.2200       248
   0.2400       101
   0.2600        52
   0.2800        38
   0.3000        31
   0.3200        17
   0.3400         8
   0.3600        10
   0.3800        13
   0.4000         5
   0.4200         7
   0.4400         5
   0.4600         3
   0.4800         3
   0.5000         3
   0.5200         5
   0.5400         3
   0.5600         3
   0.5800         0
   0.6000         0
   0.6200         0
   0.6400         1
   0.6600         1
   0.6800         0
   0.7000         0
   0.7200         1
   0.7400         0
   0.7600         0
   0.7800         0
   0.8000         0
   0.8200         0
   0.8400         0
   0.8600         0
   0.8800         0
   0.9000         0
   0.9200         0
   0.9400         0
   0.9600         0
   0.9800         0
   1.0000         0

File: Rocking2.UXD
; C:\DIFFDAT1\Praktikum\Tom lukas\Rocking2.raw(Diffrac Plus V1.01 file) converted by XCH V1.0
_FILEVERSION=2
_SITE='Deutschland'
_USER='Administrator'
_GONIOMETER_CODE=4885
; D8 Theta/Theta; Special
_SAMPLE_CHANGER_CODE=0
_ATTACHMENTS_CODE=0
_GONIOMETER_RADIUS=350
_FIXED_DIVSLIT=0.600000
_FIXED_SAMPLESLIT=0.000000
_FIXED_DETSLIT=11.66
_MONOCHROMATOR=0
; None
_THIN_FILM='N'
_BETA_FILTER='Y'
_FIXED_ANTISLIT=8.340000
_ANALYZER_CODE=0
; None
_DATEMEASURED='26-Jun-2023 09:57:04'
_WL_UNIT='A'
_WL1=1.540600
_WL2=1.544390
_WL3=1.392220
_WLRATIO=0.500000
_ANODE='Cu'
; (Data for Range number 1)
_DRIVE='THETA'
_STEPTIME=0.999980
_STEPSIZE=0.005000
_STEPMODE='C'
_START=0.000000
_THETA=0.000000
_2THETA=0.300000
_KHI=0.000000
_PHI=90
_X=-2.005000
_Y=0.500000
_Z=0.072000
_DIVERGENCE=0.000000
_ANTISCATTER=0.000000
_DETECTOR=5
_DETECTORSLIT='unkn'
_AUX1=0.000000
_AUX2=0.000000
_AUX3=0.000000
_TIMESTARTED=3.000000
_TEMP_RATE=-1.000000
_TEMP_DELAY=-1.000000
_KV=40
_MA=35
_RANGE_WL=1.540600
_3DPLANE=0
_GONIOMETER=0.299600
_PSDCHANNEL0=0
_2THETACOUNTS
   0.0000         8
   0.0050         5
   0.0100         8
   0.0150         3
   0.0200        10
   0.0250         9
   0.0300        11
   0.0350        14
   0.0400         9
   0.0450        18
   0.0500        38
   0.0550        37
   0.0600        50
   0.0650        80
   0.0700        97
   0.0750       165
   0.0800       198
   0.0850       312
   0.0900       510
   0.0950       716
   0.1000      1023
   0.1050      1370
   0.1100      1875
   0.1150      2854
   0.1200      4421
   0.1250      5531
   0.1300      6805
   0.1350     11570
   0.1400     33215
   0.1450     63219
   0.1500     98810
   0.1550    107918
   0.1600     66276
   0.1650     24390
   0.1700      8400
   0.1750      5656
   0.1800      4389
   0.1850      3807
   0.1900      2995
   0.1950      2357
   0.2000      1799
   0.2050      1445
   0.2100      1074
   0.2150       773
   0.2200       561
   0.2250       421
   0.2300       308
   0.2350       237
   0.2400       226
   0.2450       158
   0.2500       149
   0.2550       125
   0.2600        94
   0.2650        79
   0.2700        54
   0.2750        29
   0.2800        20
   0.2850        20
   0.2900        14
   0.2950        11
   0.3000         3

File: Rocking2_neu.UXD
; C:\DIFFDAT1\Praktikum\Tom lukas\Rocking2_neu.raw(Diffrac Plus V1.01 file) converted by XCH V1.0
_FILEVERSION=2
_SITE='Deutschland'
_USER='Administrator'
_GONIOMETER_CODE=4885
; D8 Theta/Theta; Special
_SAMPLE_CHANGER_CODE=0
_ATTACHMENTS_CODE=0
_GONIOMETER_RADIUS=350
_FIXED_DIVSLIT=0.600000
_FIXED_SAMPLESLIT=0.000000
_FIXED_DETSLIT=11.66
_MONOCHROMATOR=0
; None
_THIN_FILM='N'
_BETA_FILTER='Y'
_FIXED_ANTISLIT=8.340000
_ANALYZER_CODE=0
; None
_DATEMEASURED='26-Jun-2023 10:11:50'
_WL_UNIT='A'
_WL1=1.540600
_WL2=1.544390
_WL3=1.392220
_WLRATIO=0.500000
_ANODE='Cu'
; (Data for Range number 1)
_DRIVE='THETA'
_STEPTIME=0.999980
_STEPSIZE=0.005000
_STEPMODE='C'
_START=0.000000
_THETA=0.000000
_2THETA=0.300000
_KHI=0.000000
_PHI=90
_X=-2.005000
_Y=0.500000
_Z=0.086000
_DIVERGENCE=0.000000
_ANTISCATTER=0.000000
_DETECTOR=5
_DETECTORSLIT='unkn'
_AUX1=0.000000
_AUX2=0.000000
_AUX3=0.000000
_TIMESTARTED=2.000000
_TEMP_RATE=-1.000000
_TEMP_DELAY=-1.000000
_KV=40
_MA=35
_RANGE_WL=1.540600
_3DPLANE=0
_GONIOMETER=0.299500
_PSDCHANNEL0=0
_2THETACOUNTS
   0.0000         5
   0.0050         8
   0.0100         9
   0.0150         5
   0.0200        11
   0.0250         6
   0.0300        17
   0.0350        22
   0.0400        21
   0.0450        34
   0.0500        28
   0.0550        49
   0.0600        59
   0.0650        94
   0.0700       135
   0.0750       187
   0.0800       274
   0.0850       401
   0.0900       692
   0.0950       901
   0.1000      1185
   0.1050      1624
   0.1100      2720
   0.1150      3933
   0.1200      4934
   0.1250      5777
   0.1300      8282
   0.1350     19457
   0.1400     48297
   0.1450     83904
   0.1500    115323
   0.1550     88805
   0.1600     38467
   0.1650     12328
   0.1700      6334
   0.1750      4969
   0.1800      3958
   0.1850      3444
   0.1900      2779
   0.1950      2102
   0.2000      1601
   0.2050      1215
   0.2100       901
   0.2150       640
   0.2200       479
   0.2250       359
   0.2300       273
   0.2350       235
   0.2400       212
   0.2450       156
   0.2500       149
   0.2550        91
   0.2600        66
   0.2650        55
   0.2700        41
   0.2750        23
   0.2800        14
   0.2850         8
   0.2900        10
   0.2950         5
   0.3000         1